###	D:\Data\2021\2117\Data\QCs\20210421_dHeLa_200ng_Slot1-5_1_2915.d\ProteinAnalysisResults.mgf
###	D:\Data\2021\2117\Data\QCs\20210421_dHeLa_200ng_Slot1-5_1_2915.d\analysis.tdf
###	20210421_dHeLa_200ng_Slot1-5_1_2915.d
###	Instrument: timsTOF Pro
###	Manufacturer: Bruker
###    20210421_dHeLa_200ng
###    PeakWidth 5.00, MiniumIntensity 10, S/N 1Apply threshold 0, Threshold 10
###    Retain Residuals no, Create neutrally no,
###    FullScan Parameters: AdductIon (+)+H (-)-H, LowMass 0, HighMass 8000, MaxCharge charge decon 4, MinPeaks 3
###    Perf. isotope decon yes, Max Charge Istopic decon 0, MW agreement 5.00, Abund. cutoff 0.10, Envelope cutoff 75.00
###    MaxRes   Parameters: AdductIon (+)+H (-)-H, LowMass 0, HighMass 8000
###    Perf. isotope decon yes, Max Charge Istopic decon 0, Abund. cutoff 2.00
###    MSn      Parameters: AdductIon (+)+H (-)-H, LowMass 0, HighMass 8000
###    Perf. isotope decon yes, Max Charge Istopic decon 0, Abund. cutoff 0.05
###    Global Charge Limit: yes 3, Prefer FullScan Result: yes, Export what: 2 (0=non deconv/1=deconv only/2=mixed), NoMSMSSignals: 150, Intensity threshold: 10, NoMSSignals (deconv): 2, NoMSSignals (non-deconv): 2, NormalizeData: no, SingleCharged: yes
###
COM=20210421_dHeLa_200ng_Slot1-5_1_2915.d
USERNAME=Regis Lavigne
CHARGE=2+ and 3+

###FS:    #m/z: 719.28728 #charge 2+
###MS: 1
###MSMS: 2-6, 8
###Mobility: 0.9581
BEGIN IONS
TITLE=Cmpd 1, +MS2(719.2873), 33.7eV, 0.0min, 1/K0=0.958, #2-8
RTINSECONDS=0.999451
RAWSCANS=1-6,8
PEPMASS=719.28728	41572
CHARGE=2+
231.09540	118
264.10307	121
284.12514	122
286.10306	451
301.05189	135
304.11479	221	1+
312.11349	90
313.12013	188
326.14526	109
331.13298	139
351.10915	148
364.01716	201
373.18565	113
377.12159	95
381.14869	152
383.15335	95
389.21641	258
398.18824	113
401.15925	270
407.15664	107
416.15763	98
431.08338	126
435.13595	129
435.15631	324
450.23198	135
452.18255	283
469.13996	114
483.17911	93
484.20193	333
485.69540	105
493.70908	142
500.53677	125
501.20103	104
502.21445	316
504.21659	140
518.72637	92
529.07110	127
542.22883	163
544.17059	279	1+
545.19764	124
546.64699	125
547.17995	126
554.25158	99
554.59546	98
559.22793	102
559.72939	127
563.21724	255
566.27628	122
567.15482	95
573.16949	92
575.18646	145
576.26654	218	1+
577.61451	115
577.72397	114
578.27519	109
586.24794	112
596.30231	99
596.66283	162	1+
599.22417	129
599.25492	93
602.19941	93
611.23534	95
614.71478	148
616.17999	91
616.25886	114
617.20954	114
618.22043	119
620.23091	236
624.22467	156
625.21772	111
627.31430	130
629.17814	139
629.27268	113
632.82313	110
633.22615	98
636.77186	139
643.75353	151
645.21666	104
647.77613	138
655.30002	95
656.74401	138
657.69934	305	1+
661.72362	99
662.18018	107
662.26732	176
662.75819	106
663.69241	111
664.25587	173
666.30851	125
666.80314	115
667.31825	135
668.29222	312
668.69825	135
668.71856	102
668.75511	97
669.23846	110
673.73920	110
675.20743	110
676.22798	101
676.80799	140
677.30177	331
680.20318	121
681.11274	122
684.67894	111
689.26420	121
689.71779	103
690.29944	122
692.66979	122
692.75659	93
698.34402	161	1+
699.31204	264
701.23087	126
701.29741	270
702.77037	101
702.82866	146
703.41997	88
704.27406	105
704.30364	138
704.32405	551	1+
709.22544	94
709.80688	94
710.31474	360	1+
710.35089	97
710.78625	211
711.20080	155
711.29137	194
715.22276	89
718.75041	313	1+
718.78442	137
720.35792	160
720.83428	195
724.33735	173
745.29224	91
758.25255	89
758.36498	113
761.30858	122
769.29349	98
785.19025	109
820.28912	122
821.35082	200
834.33538	123
842.31649	108
859.35295	147
870.35725	123
876.36795	2713	1+
878.44439	76	1+
900.36106	92
906.28785	118
917.40705	119
935.40746	1037	1+
937.40584	357	1+
987.40522	606	1+
1004.43073	186
1005.42261	180
1014.35639	105
1032.34427	95
1036.45440	558	1+
1107.48857	377
1135.48116	162
1142.39740	92
1174.47061	154
1178.53643	100
1233.49138	91
1250.50027	309
1260.48094	94
1438.57953	1739	1+
END IONS
